File: Raman Data/dms0_05mbar_singlescan.txt
#Wave		#Intensity
1907.73	787.279
1906.19	817.994
1904.64	854.996
1903.09	825.73
1901.54	820.71
1900	862.534
1898.45	796.142
1896.9	789.517
1895.35	803.879
1893.8	829.532
1892.25	818.063
1890.71	834.024
1889.15	790.301
1887.6	844.961
1886.05	827.05
1884.5	805.922
1882.95	826.703
1881.4	766.916
1879.85	811.859
1878.29	832.625
1876.74	801.857
1875.19	835.495
1873.64	799.912
1872.08	815.835
1870.53	826.926
1868.97	842.837
1867.42	815.322
1865.87	787.819
1864.31	827.84
1862.75	901.594
1861.2	853.202
1859.64	885.152
1858.09	849.632
1856.53	793.252
1854.97	823.589
1853.41	812.181
1851.86	877.806
1850.3	840.72
1848.74	882.25
1847.18	864.424
1845.62	836.985
1844.06	859.253
1842.5	828.621
1840.94	847.676
1839.38	871.53
1837.82	810.481
1836.26	810.311
1834.7	842.163
1833.13	848.39
1831.57	881.82
1830.01	795.232
1828.45	819.062
1826.88	844.48
1825.32	845.903
1823.76	887.292
1822.19	880.713
1820.63	826.195
1819.06	856.379
1817.5	856.199
1815.93	862.408
1814.37	823.906
1812.8	871.625
1811.24	858.675
1809.67	863.282
1808.1	893.414
1806.54	858.136
1804.97	854.766
1803.4	845.021
1801.83	863.973
1800.26	882.917
1798.69	841.304
1797.12	842.721
1795.55	828.21
1793.98	866.254
1792.41	827.864
1790.84	886.584
1789.27	868.893
1787.7	863.938
1786.13	851.031
1784.56	830.178
1782.99	825.234
1781.41	844.138
1779.84	850.319
1778.27	883.511
1776.69	822.955
1775.12	868.846
1773.54	828.963
1771.97	868.482
1770.4	896.873
1768.82	882.402
1767.24	863.177
1765.67	864.582
1764.09	897.708
1762.52	846.777
1760.94	895.747
1759.36	889.219
1757.79	877.94
1756.21	833.393
1754.63	904.502
1753.05	866.303
1751.47	867.705
1749.89	865.94
1748.31	848.348
1746.73	865.577
1745.15	930.261
1743.57	911.085
1741.99	896.662
1740.41	864.852
1738.83	855.187
1737.25	883.455
1735.66	886.43
1734.08	909.941
1732.5	900.274
1730.92	903.243
1729.33	910.948
1727.75	902.865
1726.16	869.535
1724.58	856.731
1722.99	872.326
1721.41	846.909
1719.82	884.574
1718.24	908.036
1716.65	857.41
1715.06	866.685
1713.48	901.163
1711.89	861.596
1710.3	867.714
1708.71	875.405
1707.13	916.149
1705.54	900.219
1703.95	887.442
1702.36	910.853
1700.77	885.497
1699.18	894.746
1697.59	932.29
1696	925.807
1694.41	905.184
1692.82	928.561
1691.23	947.217
1689.64	895.191
1688.04	913.845
1686.45	918.363
1684.86	889.919
1683.27	955.638
1681.67	897.39
1680.08	919.161
1678.48	875.058
1676.89	904.664
1675.29	924.852
1673.7	904.284
1672.1	919.763
1670.51	928.969
1668.91	897.449
1667.31	958.331
1665.72	970.654
1664.12	896.884
1662.52	917.039
1660.93	907.459
1659.33	941.682
1657.73	908.641
1656.13	866.233
1654.53	906.696
1652.93	928.386
1651.33	943.817
1649.73	938.932
1648.13	946.544
1646.53	926.044
1644.93	927.41
1643.33	900.679
1641.72	919.217
1640.12	947.109
1638.52	906.35
1636.92	929.554
1635.31	940.274
1633.71	918.25
1632.11	957.023
1630.5	980.197
1628.9	972.2
1627.29	995.361
1625.69	978.02
1624.08	962.244
1622.47	990.062
1620.87	964.951
1619.26	947.631
1617.66	962.989
1616.05	990.783
1614.44	950.142
1612.83	979.482
1611.22	954.405
1609.62	974.406
1608.01	997.507
1606.4	1006.62
1604.79	997.086
1603.18	1035.69
1601.57	1032.37
1599.96	991.799
1598.35	972.968
1596.73	1000.69
1595.12	995.824
1593.51	975.453
1591.9	979.899
1590.29	957.99
1588.67	974.835
1587.06	1033.51
1585.45	969.776
1583.83	1017.58
1582.22	1000.34
1580.6	1023.35
1578.99	1003.01
1577.37	984.226
1575.76	1019.6
1574.14	1011.65
1572.52	961.95
1570.91	963.293
1569.29	963.089
1567.67	984.523
1566.05	950.319
1564.44	991.83
1562.82	1011.7
1561.2	1013.03
1559.58	1003.55
1557.96	986.359
1556.34	979.977
1554.72	987.484
1553.1	968.764
1551.48	996.32
1549.86	974.521
1548.23	992.814
1546.61	991.062
1544.99	964.655
1543.37	984.479
1541.74	984.27
1540.12	964.041
1538.5	1019.26
1536.87	1035.98
1535.25	1029.6
1533.62	961.684
1532	1018.4
1530.37	1018.18
1528.75	987.212
1527.12	988.54
1525.49	997.552
1523.87	1008.1
1522.24	1003.27
1520.61	956.978
1518.98	1004.38
1517.36	1001.1
1515.73	1017.77
1514.1	1019.09
1512.47	966.701
1510.84	961.893
1509.21	958.621
1507.58	1033.56
1505.95	1051.73
1504.32	974.869
1502.69	979.259
1501.05	1008.16
1499.42	963.523
1497.79	980.164
1496.16	1009.05
1494.53	984.339
1492.89	997.904
1491.26	994.63
1489.62	960.761
1487.99	992.676
1486.36	1030.69
1484.72	1021.3
1483.08	1024.14
1481.45	1028.51
1479.81	1008.42
1478.18	977.657
1476.54	1021.74
1474.9	1001.67
1473.26	998.403
1471.62	1031.77
1469.99	1004.08
1468.35	1009.97
1466.71	1023.48
1465.07	979.036
1463.43	1003.22
1461.79	1013.68
1460.15	1054.61
1458.51	972.103
1456.87	990.175
1455.23	1056.98
1453.58	1017.16
1451.94	981.926
1450.3	1033.47
1448.66	1027.16
1447.01	988.902
1445.37	1011.51
1443.73	1006.73
1442.08	1006.51
1440.44	1032.14
1438.79	1025.84
1437.15	1080.31
1435.5	1011.72
1433.86	1060.11
1432.21	1023.44
1430.56	988.299
1428.91	1070.05
1427.27	1078.92
1425.62	1081.73
1423.97	1035.99
1422.32	993.303
1420.67	1038.57
1419.03	1039.87
1417.38	1042.67
1415.72	1027.3
1414.07	1045.26
1412.42	1035.94
1410.77	1067.52
1409.12	1044.58
1407.47	1011.06
1405.82	1069.85
1404.17	1113.5
1402.51	1043.68
1400.86	1052.53
1399.21	1044.74
1397.55	1026.38
1395.9	1048.82
1394.24	1072.77
1392.59	1058.95
1390.93	1027
1389.28	1047.92
1387.62	1058.26
1385.96	1050.48
1384.31	1012.53
1382.65	1051.54
1380.99	1070.92
1379.34	1048.07
1377.68	1081.01
1376.02	1068.72
1374.36	1076.02
1372.7	1038.12
1371.04	1077.06
1369.38	1061.77
1367.72	1040.46
1366.06	1034.21
1364.4	1103.22
1362.74	1112.01
1361.08	1065.13
1359.41	1066.4
1357.75	1082.71
1356.09	1058.42
1354.43	1062.7
1352.76	1038.43
1351.1	1054.73
1349.43	1054.5
1347.77	1069.29
1346.1	1093.08
1344.44	1083.84
1342.77	1074.6
1341.11	1069.86
1339.44	1065.13
1337.77	1081.4
1336.11	1079.66
1334.44	1098.92
1332.77	1101.67
1331.1	1074.46
1329.43	1048.76
1327.77	1096.46
1326.1	1145.64
1324.43	1101.97
1322.76	1089.76
1321.09	1134.42
1319.41	1101.25
1317.74	1111.48
1316.07	1127.69
1314.4	1130.44
1312.73	1082.35
1311.05	1088.09
1309.38	1090.85
1307.71	1081.64
1306.04	1096.34
1304.36	1100.58
1302.69	1103.33
1301.01	1089.65
1299.34	1089.42
1297.66	1107.08
1295.98	1129.22
1294.31	1120.02
1292.63	1104.86
1290.96	1132.95
1289.28	1062.65
1287.6	1141.39
1285.92	1086.02
1284.24	1070.89
1282.56	1097.46
1280.88	1086.8
1279.21	1131.21
1277.53	1090.78
1275.85	1135.18
1274.16	1134.93
1272.48	1104.94
1270.8	1091.31
1269.12	1098.51
1267.44	1071.51
1265.75	1060.88
1264.07	1088.87
1262.39	1116.85
1260.71	1152.24
1259.02	1117.84
1257.34	1104.24
1255.65	1092.12
1253.97	1108.2
1252.28	1084.23
1250.6	1082.51
1248.91	1150.47
1247.22	1119.09
1245.54	1160.33
1243.85	1091.92
1242.16	1115.38
1240.47	1072.19
1238.78	1151.91
1237.09	1139.81
1235.4	1092.2
1233.71	1111.2
1232.03	1068.05
1230.34	1085.56
1228.64	1060.19
1226.95	1086.56
1225.26	1068.59
1223.57	1112.68
1221.88	1115.39
1220.19	1097.42
1218.49	1089.79
1216.8	1091.03
1215.11	1104.07
1213.41	1100.87
1211.72	1097.68
1210.02	1097.44
1208.33	1073.6
1206.63	1104.32
1204.94	1126.19
1203.24	1092.04
1201.54	1116.85
1199.84	1078.3
1198.15	1110.46
1196.45	1045.43
1194.75	1162.97
1193.05	1106.78
1191.35	1162.45
1189.65	1097.46
1187.96	1086.92
1186.25	1079.33
1184.55	1123.19
1182.85	1125.88
1181.15	1131.51
1179.45	1129.79
1177.75	1079.6
1176.04	1070.55
1174.34	1079.12
1172.64	1074.48
1170.94	1135.87
1169.23	1118.01
1167.53	1122.17
1165.82	1086.72
1164.12	1150.99
1162.41	1152.2
1160.71	1091.85
1159	1128.24
1157.29	1095.76
1155.59	1098.45
1153.88	1112.84
1152.17	1108.2
1150.46	1175.28
1148.76	1136.97
1147.05	1103.07
1145.34	1124.77
1143.63	1123.05
1141.92	1163.74
1140.21	1148.86
1138.5	1119.38
1136.79	1195.1
1135.07	1172.92
1133.36	1136.15
1131.65	1157.8
1129.94	1194.03
1128.22	1164.57
1126.51	1135.13
1124.8	1136.34
1123.08	1141.92
1121.37	1181.03
1119.65	1150.15
1117.94	1126.57
1116.22	1135.06
1114.51	1177.06
1112.79	1138.92
1111.07	1102.27
1109.36	1128.22
1107.64	1165.81
1105.92	1136.45
1104.2	1139.1
1102.48	1167.93
1100.76	1141.5
1099.04	1179.04
1097.32	1181.68
1095.6	1153.81
1093.88	1153.55
1092.16	1164.91
1090.44	1118.18
1088.72	1207.94
1086.99	1188.8
1085.27	1158.05
1083.55	1146.19
1081.83	1169.14
1080.1	1199.33
1078.38	1113.51
1076.65	1200.24
1074.93	1160.84
1073.2	1121.45
1071.48	1135.69
1069.75	1141.22
1068.02	1169.92
1066.3	1175.45
1064.57	1124.53
1062.84	1176.37
1061.11	1235.41
1059.38	1167.16
1057.66	1211.72
1055.93	1179.64
1054.2	1188.05
1052.47	1216.68
1050.74	1171.62
1049	1201.68
1047.27	1146.54
1045.54	1185.26
1043.81	1219.63
1042.08	1170.29
1040.34	1217.64
1038.61	1130.82
1036.88	1173.82
1035.14	1221.13
1033.41	1252.57
1031.67	1193.2
1029.94	1237.59
1028.2	1156.65
1026.47	1232.71
1024.73	1209.39
1022.99	1204.8
1021.26	1208.84
1019.52	1201.38
1017.78	1193.91
1016.04	1193.64
1014.3	1196.24
1012.56	1191.66
1010.83	1172.7
1009.09	1205.48
1007.35	1265.54
1005.6	1214.99
1003.86	1219.02
1002.12	1237.4
1000.38	1202.68
998.637	1221.06
996.895	1252.34
995.152	1201.86
993.408	1240.3
991.664	1218.51
989.92	1245.46
988.176	1182.13
986.43	1229.14
984.684	1296.17
982.938	1252.92
981.191	1218.28
979.445	1262.37
977.699	1193.39
975.951	1208.86
974.203	1211.44
972.455	1292.67
970.705	1246.63
968.957	1287.79
967.207	1268.92
965.457	1264.35
963.707	1272.63
961.957	1285.19
960.205	1263.48
958.453	1200.39
956.701	1235.79
954.949	1219.81
953.197	1205.27
951.443	1216.4
949.689	1231.81
947.936	1295.66
946.182	1328.14
944.428	1289.37
942.672	1289.08
940.916	1273.12
939.16	1248.62
937.404	1325.2
935.646	1273.66
933.891	1281.91
932.133	1305.79
930.375	1268.52
928.617	1313.73
926.857	1279.31
925.098	1264.8
923.338	1309.98
921.578	1248.6
919.818	1306.54
918.059	1345.99
916.297	1297.42
914.535	1298.54
912.773	1288.31
911.01	1307.87
909.248	1282.04
907.484	1311.52
905.721	1338.15
903.957	1272.65
902.193	1313.45
900.428	1325.9
898.662	1291.6
896.896	1342.28
895.131	1289.59
893.363	1323.26
891.598	1331.44
889.83	1288.7
888.062	1296.89
886.295	1360.22
884.525	1279.33
882.756	1297.4
880.988	1299.93
879.217	1370.26
877.447	1405.25
875.678	1355.51
873.906	1326.96
872.135	1350.65
870.363	1327.76
868.59	1340.15
866.818	1366.64
865.045	1325.43
863.271	1361.78
861.498	1372.74
859.723	1348.46
857.949	1377.74
856.174	1350.66
854.398	1343.3
852.623	1352.85
850.846	1411.65
849.07	1319.86
847.293	1360.35
845.516	1350.19
843.736	1337.22
841.959	1360.81
840.18	1373.14
838.4	1370.01
836.621	1358.46
834.842	1370.78
833.061	1370.47
831.279	1357.51
829.498	1378.25
827.717	1313.38
825.936	1360.78
824.152	1370.28
822.369	1440.07
820.586	1340.2
818.803	1391.75
817.018	1364.8
815.234	1393.9
813.449	1380.98
811.664	1365.25
809.877	1360.73
808.092	1410.8
806.305	1404.88
804.518	1417.14
802.73	1408.42
800.941	1419.28
799.154	1395.18
797.365	1383.68
795.576	1401.52
793.787	1433.33
791.996	1412.04
790.207	1463.38
788.416	1433.72
786.625	1384.54
784.832	1442.82
783.041	1422.96
781.248	1439.36
779.455	1415.32
777.662	1420.57
775.869	1421.63
774.074	1470.07
772.279	1497.59
770.484	1430.38
768.689	1441.19
766.893	1488.19
765.098	1460
763.301	1416.53
761.504	1434.28
759.705	1481.23
757.908	1471.16
756.109	1454.13
754.311	1455.18
752.512	1481.24
750.713	1461.45
748.912	1454.16
747.111	1442.71
745.311	1520.12
743.51	1485.06
741.709	1498.59
739.906	1455.24
738.104	1425.77
736.301	1472.58
734.496	1529.08
732.693	1520.4
730.889	1561.62
729.084	1503.07
727.279	1469.48
725.475	1491.29
723.668	1497.86
721.861	1565.33
720.055	1473.64
718.248	1463.61
716.439	1500.61
714.633	1479.52
712.824	1502.67
711.016	1481.59
709.205	1526.84
707.396	1536.15
705.586	1542.7
703.775	1494.01
701.965	1524.03
700.152	1525.05
698.34	1470.88
696.529	1476.05
694.715	1525.36
692.902	1509.83
691.09	1514.99
689.275	1496.72
687.461	1568.02
685.646	1544.23
683.83	1535.61
682.016	1491.18
680.199	1577.56
678.383	1630.86
676.566	1494.26
674.748	1520.05
672.93	1578.83
671.111	1533.09
669.293	1560.22
667.475	1574.97
665.654	1567.73
663.834	1611.32
662.014	1583.47
660.193	1583.1
658.373	1545.67
656.551	1512.37
654.729	1562.78
652.906	1567.9
651.084	1562.04
649.26	1584.98
647.436	1596.95
645.611	1615.76
643.787	1581.13
641.963	1565.69
640.137	1565.32
638.311	1573.17
636.484	1596.07
634.658	1609.38
632.83	1583
631.002	1630.51
629.174	1605.51
627.346	1621.54
625.518	1608.85
623.688	1639.9
621.857	1668.21
620.027	1592.69
618.197	1582.76
616.365	1593.31
614.535	1650.26
612.703	1578.91
610.871	1612.65
609.037	1612.27
607.203	1611.89
605.371	1623.78
603.537	1572.96
601.701	1601.21
599.867	1656.69
598.031	1629.06
596.195	1634.12
594.359	1629.66
592.523	1612.94
590.686	1620.72
588.848	1652.99
587.01	1639
585.172	1626.38
583.332	1654.54
581.492	1620.17
579.654	1664.64
577.812	1661.53
575.973	1680.15
574.131	1660.74
572.291	1692.93
570.447	1600.24
568.605	1643.29
566.764	1660.54
564.92	1675.06
563.076	1695.01
561.232	1690.54
559.387	1627.8
557.543	1689.75
555.697	1651.41
553.852	1638.84
552.006	1704.8
550.158	1685.45
548.311	1672.87
546.463	1658.94
544.615	1673.43
542.768	1701.44
540.918	1667.23
539.068	1668.19
537.219	1674.56
535.369	1703.89
533.52	1681.87
531.668	1715.24
529.816	1726.99
527.965	1650.98
526.111	1761.26
524.26	1762.2
522.406	1721.31
520.553	1747.88
518.697	1719.15
516.844	1703.92
514.988	1688.69
513.133	1685.6
511.277	1717.53
509.42	1676.72
507.564	1732.88
505.707	1702.86
503.85	1721.3
501.992	1751.84
500.133	1778.33
498.273	1701.25
496.414	1690.09
494.555	1734.05
492.695	1748.43
490.834	1692.93
488.973	1720.74
487.111	1732.42
485.25	1723.96
483.387	1702.07
481.523	1707.04
479.66	1716.03
477.797	1792.08
475.932	1658.89
474.068	1738.95
472.203	1746.58
470.338	1691.22
468.471	1727
466.605	1749.36
464.738	1759.66
462.871	1741.84
461.004	1784.27
459.135	1785.19
457.266	1762.02
455.396	1745.55
453.527	1774.56
451.658	1734.04
449.787	1781.75
447.916	1793.35
446.045	1751.51
444.174	1764.46
442.303	1730.66
440.43	1817.03
438.557	1768.55
436.684	1804.16
434.809	1746.37
432.934	1757.96
431.061	1790.89
429.186	1766.47
427.309	1834.03
425.434	1756.31
423.557	1795.86
421.68	1839.39
419.803	1834.96
417.924	1839.86
416.045	1884.68
414.166	1781.77
412.287	1797.32
410.408	1804.87
408.527	1803.12
406.648	1786.74
404.768	1824.87
402.885	1833.74
401.004	1809.39
399.121	1799.67
397.238	1832.44
395.355	1842.63
393.471	1789.11
391.588	1817.88
389.703	1828.07
387.818	1813.05
385.934	1774.17
384.047	1825.45
382.16	1809.12
380.273	1764.97
378.387	1812.24
376.5	1815.79
374.611	1841.85
372.723	1812.29
370.834	1793.33
368.943	1783.65
367.055	1825.56
365.164	1789.43
363.273	1775.78
361.383	1771.4
359.49	1818.56
357.598	1770.57
355.705	1797.89
353.812	1813.32
351.92	1814.21
350.025	1815.11
348.131	1788.29
346.236	1777.31
344.342	1795.36
342.445	1827.91
340.551	1820.89
338.654	1881.1
336.756	1850.35
334.859	1830.15
332.961	1803.38
331.062	1872.75
329.164	1823.6
327.266	1812.64
325.365	1787.21
323.465	1806.53
321.564	1853.46
319.664	1843.82
317.764	1832.87
315.861	1781.17
313.959	1847.78
312.057	1811.87
310.152	1824.58
308.25	1793.95
306.346	1810.6
304.441	1864
302.535	1813.69
300.631	1832.95
298.725	1858.75
296.818	1779.63
294.912	1823.8
293.004	1816.81
291.096	1845.22
289.188	1847.41
287.279	1760.52
285.371	1843.93
283.461	1808.15
281.551	1818.2
279.641	1840.02
277.73	1782.02
275.82	1856.17
273.908	1799.5
271.996	1799.08
270.084	1789.51
268.17	1766.87
266.256	1825.26
264.344	1837.89
262.428	1803.51
260.514	1817.45
258.598	1811.81
256.684	1777.46
254.768	1814.88
252.85	1753.15
250.934	1772.3
249.016	1797.97
247.098	1836.65
245.18	1760.64
243.262	1736.78
241.342	1844.49
239.422	1850.57
237.502	1781.14
235.582	1789.83
233.66	1815.44
231.738	1781.19
229.816	1735.25
227.895	1769.96
225.971	1750.05
224.049	1744.44
222.125	1811.62
220.201	1780.01
218.275	1740.63
216.352	1784.38
214.426	1709.96
212.5	1788.75
210.572	1816.88
208.646	1764.56
206.719	1748.59
204.791	1731.32
202.863	1745.19
200.936	1825.15
199.006	1767.71
197.076	1773.78
195.146	1738.39
193.215	1760
191.285	1776.43
189.354	1747.54
187.422	1685.02
185.49	1700.15
183.557	1686.82
181.623	1692.9
179.689	1692.51
177.756	1743.83
175.822	1756.35
173.887	1700.38
171.951	1684.49
170.016	1718.97
168.08	1710.83
166.143	1714.31
164.207	1694.55
162.27	1765.13
160.33	1683.45